count wavelength sigma
122848 9074.91 0.88
120100 7405.48 1.05
111695 8197.85 1.38
119421 14046.91 1.43
120024 10871.36 1.44
118181 13508.58 1.62
124815 12770.64 1.67
114376 6921.58 1.67
116519 8705.94 1.70
117139 10278.59 1.74
115105 6407.45 1.77
123687 13351.31 1.84
121426 7096.99 1.88
115418 11409.69 1.91
118538 9891.48 1.95
115777 11639.54 2.10
123567 6056.62 2.24
117034 14300.95 2.24
123340 12444.01 2.47
117580 11083.06 2.52
120066 13097.27 2.68
124159 12105.29 2.96
116239 6643.34 3.03
117882 9619.29 3.17
116524 8439.80 3.30
120973 10568.93 3.77
119526 9268.46 3.78
121342 7931.71 3.84
119037 5729.99 3.85
