count wavelength sigma
7988793 7435.72 0.86
3563019 14052.96 1.06
6433188 10726.19 1.06
10956197 6086.87 1.09
2569674 11373.40 1.20
2042136 13163.80 1.27
2716538 11064.92 1.31
7452935 9927.77 1.36
10491712 6613.10 1.40
8166471 8264.39 1.41
1879449 10441.91 1.42
6169609 12268.60 1.42
5844335 11941.97 1.44
7802621 9214.03 1.46
10414174 7096.99 1.54
3064661 8687.79 1.55
3134090 10206.01 1.64
3070697 9812.84 1.68
5473402 13750.53 1.69
8063553 7720.01 1.69
10948269 6401.40 1.72
6200202 8917.64 1.74
4869890 12558.94 1.79
2401800 13466.24 1.87
4550964 12952.10 1.88
9877461 6951.83 1.89
5022456 5881.21 1.89
1734136 11639.54 2.20
9309180 8306.73 2.46
