count wavelength
11103210 46.00
11043013 64.00
11033798 99.00
10891307 109.00
10577942 149.00
10366390 161.00
10138199 197.00
10068121 224.00
9944231 249.00
9823853 274.00
9674871 336.00
8712212 366.00
8399086 320.00
8244584 299.00
8176761 399.00
8058904 449.00
7956126 875.00
7916579 416.00
7910378 450.00
7841999 851.00
7752877 499.00
7555400 520.00
7457093 549.00
7385138 566.00
7338167 597.00
6359982 624.00
6354478 648.00
6305175 670.00
6179004 836.00
6051467 699.00
5765355 723.00
5696886 749.00
5333151 771.00
5131810 813.00
5119339 790.00
4997050 924.00
4690854 1199.00
4612782 1201.00
4491867 944.00
4157005 963.00
3885693 1111.00
3271882 1153.00
3231658 1125.00
3137383 1024.00
3115170 999.00
3022990 1041.00
2736396 1064.00
2680110 1425.00
2679732 1084.00
2649307 1400.00
2635235 1384.00
2515527 1500.00
2392736 1374.00
2212733 1485.00
1946420 1471.00
1832335 1328.00
1776541 1248.00
1743353 1307.00
1648560 1274.00
1555555 1288.00
