count wavelength
207216 6177.27
205849 5509.93
205651 5534.46
205270 5559.00
205040 6049.69
204121 6025.15
202492 5930.94
199335 5906.90
198742 5858.32
197610 5706.20
196004 5730.74
180132 5755.27
170224 5508.95
168380 5599.23
166624 5623.28
164097 5652.72
139410 5660.57
0 5705.71
0 5954.98
0 5997.67
0 6017.79
0 6148.32
0 5879.91
0 6131.14
0 5847.52
0 5800.91
0 6115.93
0 6097.78
0 5828.39
